Folder: PHYS460-Advanced-Lab-Experiments/Experiment 3 - Quantum Dots/Spectroscopy/Cenco Quantum Dots

Note: README.md
# PHYS460-Advanced-Lab-Experiments
A collection of the experiments performed in UM Dearborn's Advanced Lab PHYS460 Winter 2021 section. 

The experiments follow a similar workflow. Some of them required more coding than others - many contain both Jupyter notebooks and all in one .py programs.

File: red.txt
# Wavelength (nm), Intensity (colors)
175.94	1261.55
178.81	3747.97
181.68	3587.30
184.54	3522.69
187.40	3884.07
190.26	3435.00
193.12	3563.28
195.98	3697.51
198.83	3519.34
201.68	3435.00
204.53	3432.40
207.38	3945.50
210.23	3485.27
213.07	3473.54
215.91	3444.31
218.75	3454.36
221.59	3592.32
224.43	3819.83
227.26	3731.03
230.09	3420.29
232.92	3656.93
235.75	3381.38
238.58	3402.23
241.40	3383.99
244.22	3599.21
247.04	3325.90
249.86	3361.09
252.67	3729.35
255.49	3164.67
258.30	3309.15
261.11	3286.80
263.91	3386.97
266.72	3402.42
269.52	3241.56
272.32	3885.74
275.12	3334.47
277.92	3313.80
280.71	3693.79
283.51	3314.54
286.30	3327.02
289.08	3233.74
291.87	3301.14
294.65	3808.29
297.44	3470.19
300.22	3324.60
302.99	3376.36
305.77	3446.92
308.54	3305.42
311.31	3190.74
314.08	3218.29
316.85	3233.93
319.62	3189.62
322.38	3163.93
325.14	3423.65
327.90	3226.67
330.65	3319.38
333.41	3307.10
336.16	3194.27
338.91	3156.48
341.66	3389.20
344.40	3244.91
347.15	3277.49
349.89	3356.06
352.63	3361.83
355.36	3126.69
358.10	3209.73
360.83	3375.24
363.56	3404.65
366.29	3758.95
369.01	3520.46
371.74	3203.95
374.46	3528.28
377.18	3490.67
379.90	3569.98
382.61	3260.18
385.32	3238.96
388.03	3321.81
390.74	3495.88
393.45	3428.11
396.15	3874.76
398.85	4014.39
401.55	4047.34
404.25	4498.46
406.95	4193.12
409.64	3819.28
412.33	3862.10
415.02	3725.44
417.70	3452.32
420.39	3595.12
423.07	3627.70
425.75	3486.76
428.43	3286.80
431.10	3317.52
433.77	3387.71
436.44	3356.81
439.11	3307.28
441.78	3266.51
444.44	4911.22
447.10	3344.15
449.76	3328.14
452.42	3190.18
455.07	3237.28
457.72	3240.82
460.37	3341.17
463.02	3371.14
465.66	3669.22
468.31	3502.40
470.95	3089.45
473.59	3461.07
476.22	3499.23
478.86	3198.37
481.49	3290.34
484.12	3262.23
486.74	3644.64
489.37	3354.95
491.99	3236.72
494.61	3553.41
497.23	3305.05
499.84	3532.56
502.45	3705.52
505.06	3706.08
507.67	3467.58
510.28	3655.44
512.88	3556.39
515.48	3782.60
518.08	3743.50
520.68	3740.71
523.27	3643.34
525.86	3873.83
528.45	3925.77
531.04	4650.01
533.62	4257.35
536.20	4303.53
538.78	4724.48
541.36	4787.59
543.94	4756.50
546.51	5066.49
549.08	5239.08
551.65	5130.35
554.21	5431.59
556.77	5669.15
559.33	6354.29
561.89	6208.51
564.45	6594.65
567.00	6990.09
569.55	7134.38
572.10	7962.87
574.65	8058.01
577.19	8730.30
579.73	9245.28
582.27	10272.80
584.81	10577.94
587.34	11422.27
589.87	12116.16
592.40	13014.84
594.93	13700.35
597.45	14671.09
599.97	15492.88
602.49	16185.66
605.01	17033.14
607.52	18005.74
610.03	18952.83
612.54	19575.42
615.05	20485.83
617.56	21347.47
620.06	22031.49
622.56	22564.71
625.05	22684.98
627.55	23573.61
630.04	22609.95
632.53	21981.41
635.02	21163.71
637.50	20189.06
639.98	19276.60
642.46	18174.98
644.94	16961.46
647.41	16011.39
649.89	14775.16
652.36	13605.21
654.82	12443.46
657.29	11566.93
659.75	10273.17
662.21	9608.88
664.66	8842.57
667.12	8235.25
669.57	7382.55
672.02	7154.30
674.47	6355.03
676.91	6128.08
679.35	5953.07
681.79	5581.65
684.23	5281.34
686.66	4942.68
689.09	4656.52
691.52	4672.91
693.95	4581.12
696.37	4618.91
698.79	4260.71
701.21	4250.28
703.63	4448.37
706.04	4083.46
708.45	4223.47
710.86	4156.07
713.27	4447.63
715.67	4727.27
718.07	4762.46
720.47	4032.08
722.86	4136.52
725.26	3719.30
727.65	3825.23
730.03	3673.87
732.42	3744.06
734.80	3626.58
737.18	3848.32
739.56	3837.52
741.93	4119.95
744.30	3832.49
746.67	3889.28
749.04	3520.27
751.40	3875.32
753.76	3788.93
756.12	3837.71
758.48	3658.42
760.83	3843.48
763.18	3976.04
765.53	3883.88
767.88	3640.17
770.22	3661.77
772.56	3913.30
774.90	3702.36
777.23	3737.36
779.56	3919.44
781.89	3701.80
784.22	4359.38
786.54	3428.30
788.87	3514.50
791.18	3509.47
793.50	3776.27
795.81	3688.02
798.12	3489.92
800.43	3759.51
802.74	3812.57
805.04	3812.57
807.34	3595.49
809.64	3475.96
811.93	3509.85
814.22	3408.01
816.51	3426.81
818.80	3421.04
821.08	3973.80
823.36	3538.33
825.64	3265.02
827.91	3366.86
830.19	3743.31
832.46	3421.97
834.72	3681.50
836.99	3338.93
839.25	3226.85
841.51	3367.05
843.77	3522.32
846.02	3403.35
848.27	3518.60
850.52	3729.35
852.76	3422.71
855.00	3423.83
857.24	3588.04
859.48	3615.22
861.71	3246.78
863.95	3660.65
866.17	3385.29
868.40	3212.89
870.62	3245.47
872.84	3345.26
875.06	3416.01
877.27	3244.35
879.49	3440.03
881.69	3636.63
883.90	3528.28
886.10	3791.72
888.30	3286.80
890.50	3647.80
891.68	3461.07

File: yellow.txt
# Wavelength (nm), Intensity (colors)
175.94	1253.36
178.81	3724.51
181.68	3534.98
184.54	3481.73
187.40	3862.47
190.26	3381.75
193.12	3560.49
195.98	3654.13
198.83	3488.06
201.68	3406.70
204.53	3397.39
207.38	3911.43
210.23	3483.22
213.07	3453.25
215.91	3442.45
218.75	3429.23
221.59	3561.05
224.43	3808.10
227.26	3730.10
230.09	3420.67
232.92	3610.57
235.75	3350.48
238.58	3378.40
241.40	3379.52
244.22	3570.17
247.04	3318.45
249.86	3342.10
252.67	3647.99
255.49	3136.56
258.30	3296.30
261.11	3260.92
263.91	3350.29
266.72	3351.59
269.52	3236.54
272.32	3850.18
275.12	3325.72
277.92	3298.72
280.71	3677.78
283.51	3253.11
286.30	3302.63
289.08	3164.11
291.87	3274.89
294.65	3763.98
297.44	3448.97
300.22	3315.66
302.99	3381.20
305.77	3407.63
308.54	3291.27
311.31	3165.41
314.08	3208.05
316.85	3178.08
319.62	3163.55
322.38	3139.91
325.14	3396.09
327.90	3186.64
330.65	3332.05
333.41	3289.97
336.16	3177.14
338.91	3121.48
341.66	3380.08
344.40	3213.64
347.15	3273.40
349.89	3333.91
352.63	3330.00
355.36	3053.89
358.10	3222.76
360.83	3399.81
363.56	3373.38
366.29	3750.58
369.01	3466.65
371.74	3210.28
374.46	3499.23
377.18	3479.69
379.90	3567.56
382.61	3322.74
385.32	3306.91
388.03	3495.51
390.74	3731.21
393.45	3941.04
396.15	4660.99
398.85	5159.95
401.55	5556.51
404.25	6052.12
406.95	5304.05
409.64	4752.59
412.33	4483.19
415.02	4159.98
417.70	3809.78
420.39	3813.88
423.07	3790.79
425.75	3586.92
428.43	3346.19
431.10	3378.78
433.77	3438.35
436.44	3414.52
439.11	3359.79
441.78	3290.90
444.44	4893.53
447.10	3366.12
449.76	3388.64
452.42	3240.07
455.07	3262.23
457.72	3295.00
460.37	3386.22
463.02	3471.49
465.66	3722.83
468.31	3634.59
470.95	3249.01
473.59	3608.71
476.22	3696.21
478.86	3469.07
481.49	3535.54
484.12	3617.09
486.74	4047.53
489.37	3830.45
491.99	3760.44
494.61	4196.66
497.23	4022.58
499.84	4341.88
502.45	4681.66
505.06	4755.38
507.67	4636.23
510.28	5032.79
512.88	5112.66
515.48	5578.48
518.08	5721.65
520.68	5957.73
523.27	6114.68
525.86	6582.54
528.45	6801.86
531.04	7793.27
533.62	7646.56
536.20	7887.29
538.78	8581.36
541.36	8770.33
543.94	8975.32
546.51	9400.55
549.08	9702.72
551.65	9773.09
554.21	10089.78
556.77	10181.57
559.33	10722.42
561.89	10358.07
564.45	10343.92
567.00	10339.82
569.55	9947.36
572.10	10091.09
574.65	9409.11
577.19	9307.65
579.73	8719.88
582.27	8730.49
584.81	7995.27
587.34	7823.05
589.87	7297.10
592.40	7071.45
594.93	6532.65
597.45	6320.03
599.97	5978.21
602.49	5504.01
605.01	5388.21
607.52	5292.51
610.03	5250.43
612.54	4850.52
615.05	4866.35
617.56	4834.51
620.06	4685.75
622.56	4607.93
625.05	4491.01
627.55	5262.53
630.04	4642.19
632.53	4538.30
635.02	4411.88
637.50	4350.82
639.98	4349.70
642.46	4315.44
644.94	4220.86
647.41	4383.21
649.89	4289.94
652.36	4313.77
654.82	4224.77
657.29	4296.45
659.75	4008.25
662.21	4215.28
664.66	4161.10
667.12	4310.79
669.57	4021.65
672.02	4337.23
674.47	3953.32
676.91	4157.19
679.35	4321.21
681.79	4237.06
684.23	4166.87
686.66	4057.96
689.09	3908.83
691.52	4070.99
693.95	4053.12
696.37	4240.41
698.79	3934.33
701.21	3976.04
703.63	4183.63
706.04	3933.03
708.45	4075.46
710.86	4046.04
713.27	4343.00
715.67	4613.52
718.07	4673.65
720.47	3942.15
722.86	4092.21
725.26	3660.28
727.65	3826.35
730.03	3628.63
732.42	3705.52
734.80	3590.46
737.18	3802.15
739.56	3813.88
741.93	4066.34
744.30	3790.60
746.67	3814.06
749.04	3475.78
751.40	3871.22
753.76	3679.27
756.12	3783.90
758.48	3615.22
760.83	3769.94
763.18	3923.72
765.53	3840.31
767.88	3547.45
770.22	3610.57
772.56	3857.81
774.90	3642.22
777.23	3706.82
779.56	3788.56
781.89	3637.56
784.22	4255.68
786.54	3382.31
788.87	3456.41
791.18	3459.95
793.50	3701.98
795.81	3651.34
798.12	3442.26
800.43	3680.94
802.74	3742.01
805.04	3754.11
807.34	3534.98
809.64	3416.20
811.93	3445.80
814.22	3330.00
816.51	3419.55
818.80	3376.17
821.08	3907.52
823.36	3488.62
825.64	3233.56
827.91	3326.27
830.19	3678.15
832.46	3387.34
834.72	3648.55
836.99	3350.48
839.25	3169.51
841.51	3297.97
843.77	3489.37
846.02	3332.79
848.27	3439.10
850.52	3662.14
852.76	3391.44
855.00	3405.40
857.24	3556.02
859.48	3581.34
861.71	3192.78
863.95	3643.52
866.17	3325.72
868.40	3197.81
870.62	3183.10
872.84	3319.76
875.06	3362.39
877.27	3203.21
879.49	3403.17
881.69	3593.44
883.90	3496.26
886.10	3738.29
888.30	3265.95
890.50	3647.06
891.68	3522.51