Folder: PHYS460-Advanced-Lab-Experiments/Experiment 3 - Quantum Dots/H2 Analysis

Note: README.md
# PHYS460-Advanced-Lab-Experiments
A collection of the experiments performed in UM Dearborn's Advanced Lab PHYS460 Winter 2021 section. 

The experiments follow a similar workflow. Some of them required more coding than others - many contain both Jupyter notebooks and all in one .py programs.

File: unfiltered excited h2.txt
# Wavelength (nm), Intensity
175.94	1298.41
178.81	1295.62
181.68	1285.38
184.54	1284.26
187.40	1293.76
190.26	1291.90
193.12	1279.79
195.98	1287.24
198.83	1285.75
201.68	1302.69
204.53	1289.10
207.38	1296.74
210.23	1294.32
213.07	1285.94
215.91	1295.99
218.75	1282.40
221.59	1282.59
224.43	1304.18
227.26	1284.63
230.09	1298.78
232.92	1288.73
235.75	1278.68
238.58	1308.28
241.40	1287.99
244.22	1288.73
247.04	1294.50
249.86	1279.24
252.67	1285.19
255.49	1286.50
258.30	1280.35
261.11	1297.30
263.91	1283.15
266.72	1276.07
269.52	1300.46
272.32	1287.43
275.12	1304.74
277.92	1266.02
280.71	1287.06
283.51	1297.30
286.30	1298.23
289.08	1285.94
291.87	1286.50
294.65	1318.33
297.44	1292.64
300.22	1297.30
302.99	1287.24
305.77	1303.07
308.54	1304.93
311.31	1323.36
314.08	1314.80
316.85	1306.98
319.62	1336.02
322.38	1331.74
325.14	1312.00
327.90	1330.81
330.65	1308.47
333.41	1322.06
336.16	1339.00
338.91	1326.71
341.66	1321.31
344.40	1334.34
347.15	1318.33
349.89	1319.26
352.63	1320.38
355.36	1299.72
358.10	1311.82
360.83	1313.87
363.56	1335.28
366.29	1330.99
369.01	1337.70
371.74	1324.85
374.46	1354.45
377.18	1322.62
379.90	1343.28
382.61	1322.62
385.32	1320.57
388.03	1350.73
390.74	1318.15
393.45	1331.92
396.15	1386.85
398.85	1347.56
401.55	1337.70
404.25	1330.62
406.95	1330.81
409.64	1533.00
412.33	1346.63
415.02	1323.17
417.70	1335.28
420.39	1301.95
423.07	1310.14
425.75	1328.01
428.43	1314.98
431.10	1305.30
433.77	2364.85
436.44	1423.34
439.11	1321.13
441.78	1312.75
444.44	1336.95
447.10	1330.99
449.76	1324.29
452.42	1300.65
455.07	1314.24
457.72	1363.76
460.37	1307.91
463.02	1354.82
465.66	1294.32
468.31	1320.94
470.95	1317.03
473.59	1344.40
476.22	1344.96
478.86	1356.69
481.49	1386.29
484.12	2215.90
486.74	14577.63
489.37	1722.90
491.99	1382.38
494.61	1366.93
497.23	1350.36
499.84	1333.97
502.45	1345.14
505.06	1330.43
507.67	1328.76
510.28	1332.86
512.88	1321.87
515.48	1323.55
518.08	1325.78
520.68	1328.57
523.27	1308.28
525.86	1320.75
528.45	1325.97
531.04	1346.45
533.62	1322.62
536.20	1310.14
538.78	1333.41
541.36	1349.24
543.94	1338.63
546.51	1326.53
549.08	1313.49
551.65	1312.19
554.21	1313.31
556.77	1323.92
559.33	1320.20
561.89	1321.87
564.45	1324.85
567.00	1323.17
569.55	1339.37
572.10	1353.33
574.65	1348.68
577.19	1373.44
579.73	1376.61
582.27	1416.08
584.81	1366.18
587.34	1373.26
589.87	1364.51
592.40	1391.69
594.93	1374.19
597.45	1367.67
599.97	1367.67
602.49	1386.85
605.01	1381.63
607.52	1366.00
610.03	1359.11
612.54	1378.84
615.05	1367.30
617.56	1346.82
620.06	1330.99
622.56	1339.19
625.05	1345.52
627.55	1354.27
630.04	1377.35
632.53	1384.05
635.02	1387.22
637.50	1386.66
639.98	1392.25
642.46	1415.33
644.94	1432.65
647.41	1449.59
649.89	1494.46
652.36	1700.74
654.82	19882.24
657.29	65535.00
659.75	9311.74
662.21	1625.53
664.66	1454.24
667.12	1399.51
669.57	1373.81
672.02	1372.14
674.47	1352.40
676.91	1343.84
679.35	1343.65
681.79	1321.50
684.23	1351.47
686.66	1322.80
689.09	1303.44
691.52	1307.91
693.95	1289.85
696.37	1310.33
698.79	1292.27
701.21	1300.27
703.63	1304.00
706.04	1290.41
708.45	1316.84
710.86	1318.71
713.27	1312.93
715.67	1297.11
718.07	1312.93
720.47	1300.09
722.86	1304.93
725.26	1307.35
727.65	1299.53
730.03	1330.81
732.42	1310.89
734.80	1298.60
737.18	1303.44
739.56	1285.75
741.93	1304.00
744.30	1306.60
746.67	1304.18
749.04	1296.92
751.40	1306.05
753.76	1315.91
756.12	1311.63
758.48	1308.47
760.83	1326.53
763.18	1294.69
765.53	1298.04
767.88	1297.30
770.22	1292.45
772.56	1287.99
774.90	1303.25
777.23	1322.24
779.56	1316.29
781.89	1314.61
784.22	1296.55
786.54	1289.10
788.87	1301.39
791.18	1298.97
793.50	1290.97
795.81	1279.42
798.12	1286.68
800.43	1292.08
802.74	1298.23
805.04	1299.16
807.34	1295.81
809.64	1308.09
811.93	1298.41
814.22	1303.07
816.51	1295.06
818.80	1287.80
821.08	1313.31
823.36	1295.25
825.64	1298.23
827.91	1289.29
830.19	1308.65
832.46	1292.64
834.72	1293.01
836.99	1273.46
839.25	1281.47
841.51	1260.62
843.77	1288.36
846.02	1299.34
848.27	1299.16
850.52	1299.16
852.76	1290.59
855.00	1322.43
857.24	1275.88
859.48	1291.90
861.71	1300.65
863.95	1293.94
866.17	1289.10
868.40	1286.50
870.62	1285.01
872.84	1282.59
875.06	1299.90
877.27	1300.65
879.49	1287.24
881.69	1314.42
883.90	1306.05
886.10	1286.68
888.30	1304.74
890.50	1277.19
891.68	1306.60